# $1 = wavenumber [cm^-1]
# $2 = filter function

831.4990 0
831.4995 0
831.5000 1
831.5005 1
831.5010 1
831.5015 1
831.5020 1
831.5025 1
831.5030 1
831.5035 1
831.5040 1
831.5045 1
831.5050 1
831.5055 1
831.5060 1
831.5065 1
831.5070 1
831.5075 1
831.5080 1
831.5085 1
831.5090 1
831.5095 1
831.5100 1
831.5105 1
831.5110 1
831.5115 1
831.5120 1
831.5125 1
831.5130 1
831.5135 1
831.5140 1
831.5145 1
831.5150 1
831.5155 1
831.5160 1
831.5165 1
831.5170 1
831.5175 1
831.5180 1
831.5185 1
831.5190 1
831.5195 1
831.5200 1
831.5205 1
831.5210 1
831.5215 1
831.5220 1
831.5225 1
831.5230 1
831.5235 1
831.5240 1
831.5245 1
831.5250 1
831.5255 1
831.5260 1
831.5265 1
831.5270 1
831.5275 1
831.5280 1
831.5285 1
831.5290 1
831.5295 1
831.5300 1
831.5305 1
831.5310 1
831.5315 1
831.5320 1
831.5325 1
831.5330 1
831.5335 1
831.5340 1
831.5345 1
831.5350 1
831.5355 1
831.5360 1
831.5365 1
831.5370 1
831.5375 1
831.5380 1
831.5385 1
831.5390 1
831.5395 1
831.5400 1
831.5405 1
831.5410 1
831.5415 1
831.5420 1
831.5425 1
831.5430 1
831.5435 1
831.5440 1
831.5445 1
831.5450 1
831.5455 1
831.5460 1
831.5465 1
831.5470 1
831.5475 1
831.5480 1
831.5485 1
831.5490 1
831.5495 1
831.5500 1
831.5505 1
831.5510 1
831.5515 1
831.5520 1
831.5525 1
831.5530 1
831.5535 1
831.5540 1
831.5545 1
831.5550 1
831.5555 1
831.5560 1
831.5565 1
831.5570 1
831.5575 1
831.5580 1
831.5585 1
831.5590 1
831.5595 1
831.5600 1
831.5605 1
831.5610 1
831.5615 1
831.5620 1
831.5625 1
831.5630 1
831.5635 1
831.5640 1
831.5645 1
831.5650 1
831.5655 1
831.5660 1
831.5665 1
831.5670 1
831.5675 1
831.5680 1
831.5685 1
831.5690 1
831.5695 1
831.5700 1
831.5705 1
831.5710 1
831.5715 1
831.5720 1
831.5725 1
831.5730 1
831.5735 1
831.5740 1
831.5745 1
831.5750 1
831.5755 1
831.5760 1
831.5765 1
831.5770 1
831.5775 1
831.5780 1
831.5785 1
831.5790 1
831.5795 1
831.5800 1
831.5805 1
831.5810 1
831.5815 1
831.5820 1
831.5825 1
831.5830 1
831.5835 1
831.5840 1
831.5845 1
831.5850 1
831.5855 1
831.5860 1
831.5865 1
831.5870 1
831.5875 1
831.5880 1
831.5885 1
831.5890 1
831.5895 1
831.5900 1
831.5905 1
831.5910 1
831.5915 1
831.5920 1
831.5925 1
831.5930 1
831.5935 1
831.5940 1
831.5945 1
831.5950 1
831.5955 1
831.5960 1
831.5965 1
831.5970 1
831.5975 1
831.5980 1
831.5985 1
831.5990 1
831.5995 1
831.6000 1
831.6005 1
831.6010 1
831.6015 1
831.6020 1
831.6025 1
831.6030 1
831.6035 1
831.6040 1
831.6045 1
831.6050 1
831.6055 1
831.6060 1
831.6065 1
831.6070 1
831.6075 1
831.6080 1
831.6085 1
831.6090 1
831.6095 1
831.6100 1
831.6105 1
831.6110 1
831.6115 1
831.6120 1
831.6125 1
831.6130 1
831.6135 1
831.6140 1
831.6145 1
831.6150 1
831.6155 1
831.6160 1
831.6165 1
831.6170 1
831.6175 1
831.6180 1
831.6185 1
831.6190 1
831.6195 1
831.6200 1
831.6205 1
831.6210 1
831.6215 1
831.6220 1
831.6225 1
831.6230 1
831.6235 1
831.6240 1
831.6245 1
831.6250 1
831.6255 1
831.6260 1
831.6265 1
831.6270 1
831.6275 1
831.6280 1
831.6285 1
831.6290 1
831.6295 1
831.6300 1
831.6305 1
831.6310 1
831.6315 1
831.6320 1
831.6325 1
831.6330 1
831.6335 1
831.6340 1
831.6345 1
831.6350 1
831.6355 1
831.6360 1
831.6365 1
831.6370 1
831.6375 1
831.6380 1
831.6385 1
831.6390 1
831.6395 1
831.6400 1
831.6405 1
831.6410 1
831.6415 1
831.6420 1
831.6425 1
831.6430 1
831.6435 1
831.6440 1
831.6445 1
831.6450 1
831.6455 1
831.6460 1
831.6465 1
831.6470 1
831.6475 1
831.6480 1
831.6485 1
831.6490 1
831.6495 1
831.6500 1
831.6505 1
831.6510 1
831.6515 1
831.6520 1
831.6525 1
831.6530 1
831.6535 1
831.6540 1
831.6545 1
831.6550 1
831.6555 1
831.6560 1
831.6565 1
831.6570 1
831.6575 1
831.6580 1
831.6585 1
831.6590 1
831.6595 1
831.6600 1
831.6605 1
831.6610 1
831.6615 1
831.6620 1
831.6625 1
831.6630 1
831.6635 1
831.6640 1
831.6645 1
831.6650 1
831.6655 1
831.6660 1
831.6665 1
831.6670 1
831.6675 1
831.6680 1
831.6685 1
831.6690 1
831.6695 1
831.6700 1
831.6705 1
831.6710 1
831.6715 1
831.6720 1
831.6725 1
831.6730 1
831.6735 1
831.6740 1
831.6745 1
831.6750 1
831.6755 1
831.6760 1
831.6765 1
831.6770 1
831.6775 1
831.6780 1
831.6785 1
831.6790 1
831.6795 1
831.6800 1
831.6805 1
831.6810 1
831.6815 1
831.6820 1
831.6825 1
831.6830 1
831.6835 1
831.6840 1
831.6845 1
831.6850 1
831.6855 1
831.6860 1
831.6865 1
831.6870 1
831.6875 1
831.6880 1
831.6885 1
831.6890 1
831.6895 1
831.6900 1
831.6905 1
831.6910 1
831.6915 1
831.6920 1
831.6925 1
831.6930 1
831.6935 1
831.6940 1
831.6945 1
831.6950 1
831.6955 1
831.6960 1
831.6965 1
831.6970 1
831.6975 1
831.6980 1
831.6985 1
831.6990 1
831.6995 1
831.7000 1
831.7005 1
831.7010 1
831.7015 1
831.7020 1
831.7025 1
831.7030 1
831.7035 1
831.7040 1
831.7045 1
831.7050 1
831.7055 1
831.7060 1
831.7065 1
831.7070 1
831.7075 1
831.7080 1
831.7085 1
831.7090 1
831.7095 1
831.7100 1
831.7105 1
831.7110 1
831.7115 1
831.7120 1
831.7125 1
831.7130 1
831.7135 1
831.7140 1
831.7145 1
831.7150 1
831.7155 1
831.7160 1
831.7165 1
831.7170 1
831.7175 1
831.7180 1
831.7185 1
831.7190 1
831.7195 1
831.7200 1
831.7205 1
831.7210 1
831.7215 1
831.7220 1
831.7225 1
831.7230 1
831.7235 1
831.7240 1
831.7245 1
831.7250 1
831.7255 1
831.7260 1
831.7265 1
831.7270 1
831.7275 1
831.7280 1
831.7285 1
831.7290 1
831.7295 1
831.7300 1
831.7305 1
831.7310 1
831.7315 1
831.7320 1
831.7325 1
831.7330 1
831.7335 1
831.7340 1
831.7345 1
831.7350 1
831.7355 1
831.7360 1
831.7365 1
831.7370 1
831.7375 1
831.7380 1
831.7385 1
831.7390 1
831.7395 1
831.7400 1
831.7405 1
831.7410 1
831.7415 1
831.7420 1
831.7425 1
831.7430 1
831.7435 1
831.7440 1
831.7445 1
831.7450 1
831.7455 1
831.7460 1
831.7465 1
831.7470 1
831.7475 1
831.7480 1
831.7485 1
831.7490 1
831.7495 1
831.7500 1
831.7505 1
831.7510 1
831.7515 1
831.7520 1
831.7525 1
831.7530 1
831.7535 1
831.7540 1
831.7545 1
831.7550 1
831.7555 1
831.7560 1
831.7565 1
831.7570 1
831.7575 1
831.7580 1
831.7585 1
831.7590 1
831.7595 1
831.7600 1
831.7605 1
831.7610 1
831.7615 1
831.7620 1
831.7625 1
831.7630 1
831.7635 1
831.7640 1
831.7645 1
831.7650 1
831.7655 1
831.7660 1
831.7665 1
831.7670 1
831.7675 1
831.7680 1
831.7685 1
831.7690 1
831.7695 1
831.7700 1
831.7705 1
831.7710 1
831.7715 1
831.7720 1
831.7725 1
831.7730 1
831.7735 1
831.7740 1
831.7745 1
831.7750 1
831.7755 1
831.7760 1
831.7765 1
831.7770 1
831.7775 1
831.7780 1
831.7785 1
831.7790 1
831.7795 1
831.7800 1
831.7805 1
831.7810 1
831.7815 1
831.7820 1
831.7825 1
831.7830 1
831.7835 1
831.7840 1
831.7845 1
831.7850 1
831.7855 1
831.7860 1
831.7865 1
831.7870 1
831.7875 1
831.7880 1
831.7885 1
831.7890 1
831.7895 1
831.7900 1
831.7905 1
831.7910 1
831.7915 1
831.7920 1
831.7925 1
831.7930 1
831.7935 1
831.7940 1
831.7945 1
831.7950 1
831.7955 1
831.7960 1
831.7965 1
831.7970 1
831.7975 1
831.7980 1
831.7985 1
831.7990 1
831.7995 1
831.8000 1
831.8005 1
831.8010 1
831.8015 1
831.8020 1
831.8025 1
831.8030 1
831.8035 1
831.8040 1
831.8045 1
831.8050 1
831.8055 1
831.8060 1
831.8065 1
831.8070 1
831.8075 1
831.8080 1
831.8085 1
831.8090 1
831.8095 1
831.8100 1
831.8105 1
831.8110 1
831.8115 1
831.8120 1
831.8125 1
831.8130 1
831.8135 1
831.8140 1
831.8145 1
831.8150 1
831.8155 1
831.8160 1
831.8165 1
831.8170 1
831.8175 1
831.8180 1
831.8185 1
831.8190 1
831.8195 1
831.8200 1
831.8205 1
831.8210 1
831.8215 1
831.8220 1
831.8225 1
831.8230 1
831.8235 1
831.8240 1
831.8245 1
831.8250 1
831.8255 1
831.8260 1
831.8265 1
831.8270 1
831.8275 1
831.8280 1
831.8285 1
831.8290 1
831.8295 1
831.8300 1
831.8305 1
831.8310 1
831.8315 1
831.8320 1
831.8325 1
831.8330 1
831.8335 1
831.8340 1
831.8345 1
831.8350 1
831.8355 1
831.8360 1
831.8365 1
831.8370 1
831.8375 1
831.8380 1
831.8385 1
831.8390 1
831.8395 1
831.8400 1
831.8405 1
831.8410 1
831.8415 1
831.8420 1
831.8425 1
831.8430 1
831.8435 1
831.8440 1
831.8445 1
831.8450 1
831.8455 1
831.8460 1
831.8465 1
831.8470 1
831.8475 1
831.8480 1
831.8485 1
831.8490 1
831.8495 1
831.8500 1
831.8505 1
831.8510 1
831.8515 1
831.8520 1
831.8525 1
831.8530 1
831.8535 1
831.8540 1
831.8545 1
831.8550 1
831.8555 1
831.8560 1
831.8565 1
831.8570 1
831.8575 1
831.8580 1
831.8585 1
831.8590 1
831.8595 1
831.8600 1
831.8605 1
831.8610 1
831.8615 1
831.8620 1
831.8625 1
831.8630 1
831.8635 1
831.8640 1
831.8645 1
831.8650 1
831.8655 1
831.8660 1
831.8665 1
831.8670 1
831.8675 1
831.8680 1
831.8685 1
831.8690 1
831.8695 1
831.8700 1
831.8705 1
831.8710 1
831.8715 1
831.8720 1
831.8725 1
831.8730 1
831.8735 1
831.8740 1
831.8745 1
831.8750 1
831.8755 1
831.8760 1
831.8765 1
831.8770 1
831.8775 1
831.8780 1
831.8785 1
831.8790 1
831.8795 1
831.8800 1
831.8805 1
831.8810 1
831.8815 1
831.8820 1
831.8825 1
831.8830 1
831.8835 1
831.8840 1
831.8845 1
831.8850 1
831.8855 1
831.8860 1
831.8865 1
831.8870 1
831.8875 1
831.8880 1
831.8885 1
831.8890 1
831.8895 1
831.8900 1
831.8905 1
831.8910 1
831.8915 1
831.8920 1
831.8925 1
831.8930 1
831.8935 1
831.8940 1
831.8945 1
831.8950 1
831.8955 1
831.8960 1
831.8965 1
831.8970 1
831.8975 1
831.8980 1
831.8985 1
831.8990 1
831.8995 1
831.9000 1
831.9005 1
831.9010 1
831.9015 1
831.9020 1
831.9025 1
831.9030 1
831.9035 1
831.9040 1
831.9045 1
831.9050 1
831.9055 1
831.9060 1
831.9065 1
831.9070 1
831.9075 1
831.9080 1
831.9085 1
831.9090 1
831.9095 1
831.9100 1
831.9105 1
831.9110 1
831.9115 1
831.9120 1
831.9125 1
831.9130 1
831.9135 1
831.9140 1
831.9145 1
831.9150 1
831.9155 1
831.9160 1
831.9165 1
831.9170 1
831.9175 1
831.9180 1
831.9185 1
831.9190 1
831.9195 1
831.9200 1
831.9205 1
831.9210 1
831.9215 1
831.9220 1
831.9225 1
831.9230 1
831.9235 1
831.9240 1
831.9245 1
831.9250 1
831.9255 1
831.9260 1
831.9265 1
831.9270 1
831.9275 1
831.9280 1
831.9285 1
831.9290 1
831.9295 1
831.9300 1
831.9305 1
831.9310 1
831.9315 1
831.9320 1
831.9325 1
831.9330 1
831.9335 1
831.9340 1
831.9345 1
831.9350 1
831.9355 1
831.9360 1
831.9365 1
831.9370 1
831.9375 1
831.9380 1
831.9385 1
831.9390 1
831.9395 1
831.9400 1
831.9405 1
831.9410 1
831.9415 1
831.9420 1
831.9425 1
831.9430 1
831.9435 1
831.9440 1
831.9445 1
831.9450 1
831.9455 1
831.9460 1
831.9465 1
831.9470 1
831.9475 1
831.9480 1
831.9485 1
831.9490 1
831.9495 1
831.9500 1
831.9505 1
831.9510 1
831.9515 1
831.9520 1
831.9525 1
831.9530 1
831.9535 1
831.9540 1
831.9545 1
831.9550 1
831.9555 1
831.9560 1
831.9565 1
831.9570 1
831.9575 1
831.9580 1
831.9585 1
831.9590 1
831.9595 1
831.9600 1
831.9605 1
831.9610 1
831.9615 1
831.9620 1
831.9625 1
831.9630 1
831.9635 1
831.9640 1
831.9645 1
831.9650 1
831.9655 1
831.9660 1
831.9665 1
831.9670 1
831.9675 1
831.9680 1
831.9685 1
831.9690 1
831.9695 1
831.9700 1
831.9705 1
831.9710 1
831.9715 1
831.9720 1
831.9725 1
831.9730 1
831.9735 1
831.9740 1
831.9745 1
831.9750 1
831.9755 1
831.9760 1
831.9765 1
831.9770 1
831.9775 1
831.9780 1
831.9785 1
831.9790 1
831.9795 1
831.9800 1
831.9805 1
831.9810 1
831.9815 1
831.9820 1
831.9825 1
831.9830 1
831.9835 1
831.9840 1
831.9845 1
831.9850 1
831.9855 1
831.9860 1
831.9865 1
831.9870 1
831.9875 1
831.9880 1
831.9885 1
831.9890 1
831.9895 1
831.9900 1
831.9905 1
831.9910 1
831.9915 1
831.9920 1
831.9925 1
831.9930 1
831.9935 1
831.9940 1
831.9945 1
831.9950 1
831.9955 1
831.9960 1
831.9965 1
831.9970 1
831.9975 1
831.9980 1
831.9985 1
831.9990 1
831.9995 1
832.0000 1
832.0005 1
832.0010 1
832.0015 1
832.0020 1
832.0025 1
832.0030 1
832.0035 1
832.0040 1
832.0045 1
832.0050 1
832.0055 1
832.0060 1
832.0065 1
832.0070 1
832.0075 1
832.0080 1
832.0085 1
832.0090 1
832.0095 1
832.0100 1
832.0105 1
832.0110 1
832.0115 1
832.0120 1
832.0125 1
832.0130 1
832.0135 1
832.0140 1
832.0145 1
832.0150 1
832.0155 1
832.0160 1
832.0165 1
832.0170 1
832.0175 1
832.0180 1
832.0185 1
832.0190 1
832.0195 1
832.0200 1
832.0205 1
832.0210 1
832.0215 1
832.0220 1
832.0225 1
832.0230 1
832.0235 1
832.0240 1
832.0245 1
832.0250 1
832.0255 1
832.0260 1
832.0265 1
832.0270 1
832.0275 1
832.0280 1
832.0285 1
832.0290 1
832.0295 1
832.0300 1
832.0305 1
832.0310 1
832.0315 1
832.0320 1
832.0325 1
832.0330 1
832.0335 1
832.0340 1
832.0345 1
832.0350 1
832.0355 1
832.0360 1
832.0365 1
832.0370 1
832.0375 1
832.0380 1
832.0385 1
832.0390 1
832.0395 1
832.0400 1
832.0405 1
832.0410 1
832.0415 1
832.0420 1
832.0425 1
832.0430 1
832.0435 1
832.0440 1
832.0445 1
832.0450 1
832.0455 1
832.0460 1
832.0465 1
832.0470 1
832.0475 1
832.0480 1
832.0485 1
832.0490 1
832.0495 1
832.0500 1
832.0505 1
832.0510 1
832.0515 1
832.0520 1
832.0525 1
832.0530 1
832.0535 1
832.0540 1
832.0545 1
832.0550 1
832.0555 1
832.0560 1
832.0565 1
832.0570 1
832.0575 1
832.0580 1
832.0585 1
832.0590 1
832.0595 1
832.0600 1
832.0605 1
832.0610 1
832.0615 1
832.0620 1
832.0625 1
832.0630 1
832.0635 1
832.0640 1
832.0645 1
832.0650 1
832.0655 1
832.0660 1
832.0665 1
832.0670 1
832.0675 1
832.0680 1
832.0685 1
832.0690 1
832.0695 1
832.0700 1
832.0705 1
832.0710 1
832.0715 1
832.0720 1
832.0725 1
832.0730 1
832.0735 1
832.0740 1
832.0745 1
832.0750 1
832.0755 1
832.0760 1
832.0765 1
832.0770 1
832.0775 1
832.0780 1
832.0785 1
832.0790 1
832.0795 1
832.0800 1
832.0805 1
832.0810 1
832.0815 1
832.0820 1
832.0825 1
832.0830 1
832.0835 1
832.0840 1
832.0845 1
832.0850 1
832.0855 1
832.0860 1
832.0865 1
832.0870 1
832.0875 1
832.0880 1
832.0885 1
832.0890 1
832.0895 1
832.0900 1
832.0905 1
832.0910 1
832.0915 1
832.0920 1
832.0925 1
832.0930 1
832.0935 1
832.0940 1
832.0945 1
832.0950 1
832.0955 1
832.0960 1
832.0965 1
832.0970 1
832.0975 1
832.0980 1
832.0985 1
832.0990 1
832.0995 1
832.1000 1
832.1005 1
832.1010 1
832.1015 1
832.1020 1
832.1025 1
832.1030 1
832.1035 1
832.1040 1
832.1045 1
832.1050 1
832.1055 1
832.1060 1
832.1065 1
832.1070 1
832.1075 1
832.1080 1
832.1085 1
832.1090 1
832.1095 1
832.1100 1
832.1105 1
832.1110 1
832.1115 1
832.1120 1
832.1125 1
832.1130 1
832.1135 1
832.1140 1
832.1145 1
832.1150 1
832.1155 1
832.1160 1
832.1165 1
832.1170 1
832.1175 1
832.1180 1
832.1185 1
832.1190 1
832.1195 1
832.1200 1
832.1205 1
832.1210 1
832.1215 1
832.1220 1
832.1225 1
832.1230 1
832.1235 1
832.1240 1
832.1245 1
832.1250 1
832.1255 1
832.1260 1
832.1265 1
832.1270 1
832.1275 1
832.1280 1
832.1285 1
832.1290 1
832.1295 1
832.1300 1
832.1305 1
832.1310 1
832.1315 1
832.1320 1
832.1325 1
832.1330 1
832.1335 1
832.1340 1
832.1345 1
832.1350 1
832.1355 1
832.1360 1
832.1365 1
832.1370 1
832.1375 1
832.1380 1
832.1385 1
832.1390 1
832.1395 1
832.1400 1
832.1405 1
832.1410 1
832.1415 1
832.1420 1
832.1425 1
832.1430 1
832.1435 1
832.1440 1
832.1445 1
832.1450 1
832.1455 1
832.1460 1
832.1465 1
832.1470 1
832.1475 1
832.1480 1
832.1485 1
832.1490 1
832.1495 1
832.1500 1
832.1505 1
832.1510 1
832.1515 1
832.1520 1
832.1525 1
832.1530 1
832.1535 1
832.1540 1
832.1545 1
832.1550 1
832.1555 1
832.1560 1
832.1565 1
832.1570 1
832.1575 1
832.1580 1
832.1585 1
832.1590 1
832.1595 1
832.1600 1
832.1605 1
832.1610 1
832.1615 1
832.1620 1
832.1625 1
832.1630 1
832.1635 1
832.1640 1
832.1645 1
832.1650 1
832.1655 1
832.1660 1
832.1665 1
832.1670 1
832.1675 1
832.1680 1
832.1685 1
832.1690 1
832.1695 1
832.1700 1
832.1705 1
832.1710 1
832.1715 1
832.1720 1
832.1725 1
832.1730 1
832.1735 1
832.1740 1
832.1745 1
832.1750 1
832.1755 1
832.1760 1
832.1765 1
832.1770 1
832.1775 1
832.1780 1
832.1785 1
832.1790 1
832.1795 1
832.1800 1
832.1805 1
832.1810 1
832.1815 1
832.1820 1
832.1825 1
832.1830 1
832.1835 1
832.1840 1
832.1845 1
832.1850 1
832.1855 1
832.1860 1
832.1865 1
832.1870 1
832.1875 1
832.1880 1
832.1885 1
832.1890 1
832.1895 1
832.1900 1
832.1905 1
832.1910 1
832.1915 1
832.1920 1
832.1925 1
832.1930 1
832.1935 1
832.1940 1
832.1945 1
832.1950 1
832.1955 1
832.1960 1
832.1965 1
832.1970 1
832.1975 1
832.1980 1
832.1985 1
832.1990 1
832.1995 1
832.2000 1
832.2005 1
832.2010 1
832.2015 1
832.2020 1
832.2025 1
832.2030 1
832.2035 1
832.2040 1
832.2045 1
832.2050 1
832.2055 1
832.2060 1
832.2065 1
832.2070 1
832.2075 1
832.2080 1
832.2085 1
832.2090 1
832.2095 1
832.2100 1
832.2105 1
832.2110 1
832.2115 1
832.2120 1
832.2125 1
832.2130 1
832.2135 1
832.2140 1
832.2145 1
832.2150 1
832.2155 1
832.2160 1
832.2165 1
832.2170 1
832.2175 1
832.2180 1
832.2185 1
832.2190 1
832.2195 1
832.2200 1
832.2205 1
832.2210 1
832.2215 1
832.2220 1
832.2225 1
832.2230 1
832.2235 1
832.2240 1
832.2245 1
832.2250 1
832.2255 1
832.2260 1
832.2265 1
832.2270 1
832.2275 1
832.2280 1
832.2285 1
832.2290 1
832.2295 1
832.2300 1
832.2305 1
832.2310 1
832.2315 1
832.2320 1
832.2325 1
832.2330 1
832.2335 1
832.2340 1
832.2345 1
832.2350 1
832.2355 1
832.2360 1
832.2365 1
832.2370 1
832.2375 1
832.2380 1
832.2385 1
832.2390 1
832.2395 1
832.2400 1
832.2405 1
832.2410 1
832.2415 1
832.2420 1
832.2425 1
832.2430 1
832.2435 1
832.2440 1
832.2445 1
832.2450 1
832.2455 1
832.2460 1
832.2465 1
832.2470 1
832.2475 1
832.2480 1
832.2485 1
832.2490 1
832.2495 1
832.2500 1
832.2505 1
832.2510 1
832.2515 1
832.2520 1
832.2525 1
832.2530 1
832.2535 1
832.2540 1
832.2545 1
832.2550 1
832.2555 1
832.2560 1
832.2565 1
832.2570 1
832.2575 1
832.2580 1
832.2585 1
832.2590 1
832.2595 1
832.2600 1
832.2605 1
832.2610 1
832.2615 1
832.2620 1
832.2625 1
832.2630 1
832.2635 1
832.2640 1
832.2645 1
832.2650 1
832.2655 1
832.2660 1
832.2665 1
832.2670 1
832.2675 1
832.2680 1
832.2685 1
832.2690 1
832.2695 1
832.2700 1
832.2705 1
832.2710 1
832.2715 1
832.2720 1
832.2725 1
832.2730 1
832.2735 1
832.2740 1
832.2745 1
832.2750 1
832.2755 1
832.2760 1
832.2765 1
832.2770 1
832.2775 1
832.2780 1
832.2785 1
832.2790 1
832.2795 1
832.2800 1
832.2805 1
832.2810 1
832.2815 1
832.2820 1
832.2825 1
832.2830 1
832.2835 1
832.2840 1
832.2845 1
832.2850 1
832.2855 1
832.2860 1
832.2865 1
832.2870 1
832.2875 1
832.2880 1
832.2885 1
832.2890 1
832.2895 1
832.2900 1
832.2905 1
832.2910 1
832.2915 1
832.2920 1
832.2925 1
832.2930 1
832.2935 1
832.2940 1
832.2945 1
832.2950 1
832.2955 1
832.2960 1
832.2965 1
832.2970 1
832.2975 1
832.2980 1
832.2985 1
832.2990 1
832.2995 1
832.3000 1
832.3005 1
832.3010 1
832.3015 1
832.3020 1
832.3025 1
832.3030 1
832.3035 1
832.3040 1
832.3045 1
832.3050 1
832.3055 1
832.3060 1
832.3065 1
832.3070 1
832.3075 1
832.3080 1
832.3085 1
832.3090 1
832.3095 1
832.3100 1
832.3105 1
832.3110 1
832.3115 1
832.3120 1
832.3125 1
832.3130 1
832.3135 1
832.3140 1
832.3145 1
832.3150 1
832.3155 1
832.3160 1
832.3165 1
832.3170 1
832.3175 1
832.3180 1
832.3185 1
832.3190 1
832.3195 1
832.3200 1
832.3205 1
832.3210 1
832.3215 1
832.3220 1
832.3225 1
832.3230 1
832.3235 1
832.3240 1
832.3245 1
832.3250 1
832.3255 1
832.3260 1
832.3265 1
832.3270 1
832.3275 1
832.3280 1
832.3285 1
832.3290 1
832.3295 1
832.3300 1
832.3305 1
832.3310 1
832.3315 1
832.3320 1
832.3325 1
832.3330 1
832.3335 1
832.3340 1
832.3345 1
832.3350 1
832.3355 1
832.3360 1
832.3365 1
832.3370 1
832.3375 1
832.3380 1
832.3385 1
832.3390 1
832.3395 1
832.3400 1
832.3405 1
832.3410 1
832.3415 1
832.3420 1
832.3425 1
832.3430 1
832.3435 1
832.3440 1
832.3445 1
832.3450 1
832.3455 1
832.3460 1
832.3465 1
832.3470 1
832.3475 1
832.3480 1
832.3485 1
832.3490 1
832.3495 1
832.3500 1
832.3505 1
832.3510 1
832.3515 1
832.3520 1
832.3525 1
832.3530 1
832.3535 1
832.3540 1
832.3545 1
832.3550 1
832.3555 1
832.3560 1
832.3565 1
832.3570 1
832.3575 1
832.3580 1
832.3585 1
832.3590 1
832.3595 1
832.3600 1
832.3605 1
832.3610 1
832.3615 1
832.3620 1
832.3625 1
832.3630 1
832.3635 1
832.3640 1
832.3645 1
832.3650 1
832.3655 1
832.3660 1
832.3665 1
832.3670 1
832.3675 1
832.3680 1
832.3685 1
832.3690 1
832.3695 1
832.3700 1
832.3705 1
832.3710 1
832.3715 1
832.3720 1
832.3725 1
832.3730 1
832.3735 1
832.3740 1
832.3745 1
832.3750 1
832.3755 1
832.3760 1
832.3765 1
832.3770 1
832.3775 1
832.3780 1
832.3785 1
832.3790 1
832.3795 1
832.3800 1
832.3805 1
832.3810 1
832.3815 1
832.3820 1
832.3825 1
832.3830 1
832.3835 1
832.3840 1
832.3845 1
832.3850 1
832.3855 1
832.3860 1
832.3865 1
832.3870 1
832.3875 1
832.3880 1
832.3885 1
832.3890 1
832.3895 1
832.3900 1
832.3905 1
832.3910 1
832.3915 1
832.3920 1
832.3925 1
832.3930 1
832.3935 1
832.3940 1
832.3945 1
832.3950 1
832.3955 1
832.3960 1
832.3965 1
832.3970 1
832.3975 1
832.3980 1
832.3985 1
832.3990 1
832.3995 1
832.4000 1
832.4005 1
832.4010 1
832.4015 1
832.4020 1
832.4025 1
832.4030 1
832.4035 1
832.4040 1
832.4045 1
832.4050 1
832.4055 1
832.4060 1
832.4065 1
832.4070 1
832.4075 1
832.4080 1
832.4085 1
832.4090 1
832.4095 1
832.4100 1
832.4105 1
832.4110 1
832.4115 1
832.4120 1
832.4125 1
832.4130 1
832.4135 1
832.4140 1
832.4145 1
832.4150 1
832.4155 1
832.4160 1
832.4165 1
832.4170 1
832.4175 1
832.4180 1
832.4185 1
832.4190 1
832.4195 1
832.4200 1
832.4205 1
832.4210 1
832.4215 1
832.4220 1
832.4225 1
832.4230 1
832.4235 1
832.4240 1
832.4245 1
832.4250 1
832.4255 1
832.4260 1
832.4265 1
832.4270 1
832.4275 1
832.4280 1
832.4285 1
832.4290 1
832.4295 1
832.4300 1
832.4305 1
832.4310 1
832.4315 1
832.4320 1
832.4325 1
832.4330 1
832.4335 1
832.4340 1
832.4345 1
832.4350 1
832.4355 1
832.4360 1
832.4365 1
832.4370 1
832.4375 1
832.4380 1
832.4385 1
832.4390 1
832.4395 1
832.4400 1
832.4405 1
832.4410 1
832.4415 1
832.4420 1
832.4425 1
832.4430 1
832.4435 1
832.4440 1
832.4445 1
832.4450 1
832.4455 1
832.4460 1
832.4465 1
832.4470 1
832.4475 1
832.4480 1
832.4485 1
832.4490 1
832.4495 1
832.4500 1
832.4505 1
832.4510 1
832.4515 1
832.4520 1
832.4525 1
832.4530 1
832.4535 1
832.4540 1
832.4545 1
832.4550 1
832.4555 1
832.4560 1
832.4565 1
832.4570 1
832.4575 1
832.4580 1
832.4585 1
832.4590 1
832.4595 1
832.4600 1
832.4605 1
832.4610 1
832.4615 1
832.4620 1
832.4625 1
832.4630 1
832.4635 1
832.4640 1
832.4645 1
832.4650 1
832.4655 1
832.4660 1
832.4665 1
832.4670 1
832.4675 1
832.4680 1
832.4685 1
832.4690 1
832.4695 1
832.4700 1
832.4705 1
832.4710 1
832.4715 1
832.4720 1
832.4725 1
832.4730 1
832.4735 1
832.4740 1
832.4745 1
832.4750 1
832.4755 1
832.4760 1
832.4765 1
832.4770 1
832.4775 1
832.4780 1
832.4785 1
832.4790 1
832.4795 1
832.4800 1
832.4805 1
832.4810 1
832.4815 1
832.4820 1
832.4825 1
832.4830 1
832.4835 1
832.4840 1
832.4845 1
832.4850 1
832.4855 1
832.4860 1
832.4865 1
832.4870 1
832.4875 1
832.4880 1
832.4885 1
832.4890 1
832.4895 1
832.4900 1
832.4905 1
832.4910 1
832.4915 1
832.4920 1
832.4925 1
832.4930 1
832.4935 1
832.4940 1
832.4945 1
832.4950 1
832.4955 1
832.4960 1
832.4965 1
832.4970 1
832.4975 1
832.4980 1
832.4985 1
832.4990 1
832.4995 1
832.5000 0
832.5005 0
832.5010 0
